Folder: EC_Auswertung/Daten

Note: Daten/20190815_Fe_E3_EIS_before.txt
Index	Frequency (Hz)	Z' (Ω)	-Z'' (Ω)	Z (Ω)	-Phase (°)	Time (s)
1	100000	26.7292302405967	0.710887091786463	26.7386818993027	1.52347187924117	10.1022849744942
2	79433	26.5769630546152	0.579967773629208	26.5832903874752	1.25012148176211	11.3231379714118
3	63096	26.4977071355615	0.495441616501679	26.5023384975241	1.07116461790567	12.6497859680624
4	50119	26.4422377295234	0.44118241746836	26.4459179850145	0.955877695991971	13.9966209646619
5	39811	26.4390519290027	0.406060648364116	26.4421699592649	0.879900399223392	15.2320339615428
6	31623	26.4283570599295	0.383014333278901	26.4311323417409	0.830303924200162	16.4630189584349
7	25119	26.4204133559258	0.373597216283189	26.4230546451011	0.810135591459377	17.7389639552134
8	19953	26.4452243264202	0.372569227118245	26.4478486365844	0.807148840647241	19.0150759519915
9	15849	26.4701696298092	0.377754419226819	26.4728649494556	0.817609598866448	20.3012719487442
10	12589	26.4997003194419	0.389559964347238	26.5025635361195	0.842218361918811	21.5621429455608
11	10000	26.5220311798242	0.407168404385776	26.5251564371088	0.879540426020412	23.6655129402503
12	7943.3	26.5771624449294	0.424148143817312	26.5805467451682	0.91431264401585	24.8104539373596
13	6309.6	26.6306264099949	0.442511114489786	26.6343026767206	0.951974832512697	26.0514559342264
14	5011.9	26.691023350601	0.45847747004458	26.6949607434224	0.98408519410253	27.3380499309781
15	3981.1	26.7509438569481	0.471573330349617	26.7551000492147	1.00992187163967	28.5986259277954
16	3162.3	26.824721952316	0.480153551408911	26.8290189021513	1.02546578097564	29.8596899246115
17	2511.9	26.8955886022331	0.484838069816072	26.899958256743	1.03274061389856	31.1106719214531
18	1995.3	26.9537125482272	0.483593673950458	26.9580504297686	1.02786968455665	32.3565109183077
19	1584.9	27.0259998818662	0.480223446035283	27.0302660766178	1.01797830067656	33.5571369152764
20	1258.9	27.0773604215787	0.477383999429389	27.0815683239171	1.01004139717482	34.7681229122189
21	1000	27.1384300673929	0.474349097943363	27.1425752939822	1.00136352847651	36.0137219090741
22	794.33	27.1778245258944	0.477185762745628	27.1820133951198	1.00589071092414	37.3552499056871
23	630.96	27.2411017350467	0.484439691377178	27.2454088894578	1.01880697009229	38.5808869025926
24	501.19	27.2822115626082	0.499206600138462	27.2867783913114	1.04827424709455	39.8316828994347
25	398.11	27.3365355693626	0.519242506641322	27.3414664880239	1.08817106682573	41.0472408963657
26	316.23	27.3824389668093	0.54999861129011	27.3879619950711	1.15067771773784	42.3330668931193
27	251.19	27.4414804198644	0.581675562143964	27.4476446001	1.21431366379422	43.6344548898336
28	199.53	27.5083991378987	0.631644217652515	27.5156500477026	1.31538695502973	44.9004018866374
29	158.49	27.5705529567696	0.678930911503223	27.5789111011409	1.41063604167471	46.1816998834024
30	125.89	27.6463029851896	0.737955959096397	27.6561502698129	1.52901906175109	47.5034048800654
31	100	27.7359278511228	0.799854151434925	27.7474586300485	1.65184916305649	48

Note: Daten/anodic_parameters.txt
Parameter	Value
halfwave_pot	0.6915077004703298
onset_pot	0.835933464016519
cur_lim	-0.0003151555389404297
activity	-6.912105664293302e-05
peroxide_yield	24.875811568169024
e_transfer	3.5024837686366195

Note: Daten/cathodic_parameters.txt
Parameter	Value
halfwave_pot	0.7167203411324822
onset_pot	0.8183212603693434
cur_lim	-0.0003119013336181641
activity	-5.2810280268895085e-05
peroxide_yield	26.19151026837897
e_transfer	3.4761697946324204

File: 20190815_Fe_E3_ORR_after.txt
Index	Potential applied (V)	Time (s)	WE(1).Current (A)	WE(2).Current (A)	Scan	WE(1).Potential (V)
1	0.0505066	22.9665	-0.00132294	3.33649e-05	1
65	0.0798035	28.8259	-0.00124481	3.39813e-05	1
129	0.1091	34.6853	-0.00123322	3.4906e-05	1
193	0.138397	40.5447	-0.00121857	3.5965e-05	1
257	0.167694	46.4041	-0.00119934	3.65265e-05	1
321	0.196991	52.2635	-0.00118073	3.74756e-05	1
385	0.226288	58.1229	-0.00116333	3.83118e-05	1
449	0.255585	63.9823	-0.0011438	3.91937e-05	1
513	0.284882	69.8417	-0.00112305	4.04541e-05	1
577	0.314178	75.701	-0.00109894	4.13239e-05	1
641	0.343475	81.5604	-0.00107513	4.23431e-05	1
705	0.372772	87.4198	-0.00105225	4.32861e-05	1
769	0.402069	93.2792	-0.001026	4.43512e-05	1
833	0.431366	99.1386	-0.000993042	4.50043e-05	1
897	0.460663	104.998	-0.000957336	4.55933e-05	1
961	0.48996	110.857	-0.000916748	4.57458e-05	1
1025	0.519257	116.717	-0.000873718	4.54102e-05	1
1089	0.548553	122.576	-0.000822754	4.40216e-05	1
1153	0.57785	128.436	-0.00076355	4.17603e-05	1
1217	0.607147	134.295	-0.000693054	3.89526e-05	1
1281	0.636444	140.154	-0.000608215	3.48877e-05	1
1345	0.665741	146.014	-0.000506592	2.97821e-05	1
1409	0.695038	151.873	-0.00038913	2.3407e-05	1
1473	0.724335	157.733	-0.000262115	1.70258e-05	1
1537	0.753632	163.592	-0.00013739	1.09711e-05	1
1601	0.782928	169.451	-3.44635e-05	6.6864e-06	1
1665	0.812225	175.311	3.13049e-05	4.39758e-06	1
1729	0.841522	181.17	6.28052e-05	3.6499e-06	1
1793	0.870819	187.029	7.38831e-05	3.39355e-06	1
1857	0.900116	192.889	7.82471e-05	3.27454e-06	1
1921	0.929413	198.748	7.96204e-05	3.24707e-06	1
1985	0.95871	204.608	8.1665e-05	3.12195e-06	1
2049	0.988007	210.467	8.4198e-05	3.07617e-06	1
2113	1.0173	216.326	8.79211e-05	3.08838e-06	1
2177	1.0466	222.186	9.32617e-05	3.03345e-06	1
2241	1.02463	228.045	-2.76947e-05	2.96936e-06	1
2305	0.995331	233.905	-3.79822e-05	2.98767e-06	1
2369	0.966034	239.764	-4.25262e-05	2.99377e-06	1
2433	0.936737	245.623	-4.69971e-05	3.11584e-06	1
2497	0.90744	251.483	-5.01709e-05	3.16162e-06	1
2561	0.878143	257.342	-5.60608e-05	3.22266e-06	1
2625	0.848846	263.202	-6.70471e-05	3.38135e-06	1
2689	0.81955	269.061	-9.13086e-05	3.72314e-06	1
2753	0.790253	274.92	-0.000144012	5.23071e-06	1
2817	0.760956	280.78	-0.000235962	8.84705e-06	1
2881	0.731659	286.639	-0.000358826	1.45935e-05	1
2945	0.702362	292.499	-0.000493195	2.15851e-05	1
3009	0.673065	298.358	-0.000623169	2.8476e-05	1
3073	0.643768	304.217	-0.000739441	3.50159e-05	1
3137	0.614471	310.077	-0.000835266	4.05579e-05	1
3201	0.585175	315.936	-0.000913086	4.47998e-05	1
3265	0.555878	321.796	-0.000975647	4.79126e-05	1
3329	0.526581	327.655	-0.00102814	5.00793e-05	1
3393	0.497284	333.514	-0.00107483	5.14221e-05	1
3457	0.467987	339.374	-0.00111603	5.2124e-05	1
3521	0.43869	345.233	-0.00114929	5.24597e-05	1
3585	0.409393	351.092	-0.00117584	5.17273e-05	1
3649	0.380096	356.952	-0.00120392	5.14221e-05	1
3713	0.3508	362.811	-0.00123138	5.15747e-05	1
3777	0.321503	368.671	-0.00125366	5.05371e-05	1
3841	0.292206	374.53	-0.00127838	4.98962e-05	1
3905	0.262909	380.389	-0.00129547	4.91638e-05	1
3969	0.233612	386.249	-0.00131226	4.776e-05	1
4033	0.204315	392.108	-0.00132629	4.73022e-05	1
4097	0.175018	397.968	-0.00133942	4.66614e-05	1
4161	0.145721	403.827	-0.00135803	4.58374e-05	1
4225	0.116425	409.686	-0.00137177	4.49921e-05	1
4289	0.0871277	415.546	-0.00138123	4.43115e-05	1
4353	0.0578308	421.405	-0.00139069	4.37866e-05	1
4417	0.0715637	427.265	-0.00123108	4.42139e-05	2
4481	0.100861	433.124	-0.00121399	4.53186e-05	2
4545	0.130157	438.983	-0.00119476	4.60815e-05	2
4609	0.159454	444.843	-0.00117981	4.6936e-05	2
4673	0.188751	450.702	-0.00116119	4.79431e-05	2
4737	0.218048	456.562	-0.00114349	4.92554e-05	2
4801	0.247345	462.421	-0.00112823	5.04761e-05	2
4865	0.276642	468.28	-0.00110687	5.16663e-05	2
4929	0.305939	474.14	-0.00108398	5.26733e-05	2
4993	0.335236	479.999	-0.00105957	5.40771e-05	2
5057	0.364532	485.858	-0.00103638	5.51453e-05	2
5121	0.393829	491.718	-0.00100555	5.59387e-05	2
5185	0.423126	497.577	-0.000975037	5.68237e-05	2
5249	0.452423	503.437	-0.000939941	5.67932e-05	2
5313	0.48172	509.296	-0.000897217	5.65796e-05	2
5377	0.511017	515.155	-0.000857239	5.59082e-05	2
5441	0.540314	521.015	-0.000808105	5.43823e-05	2
5505	0.569611	526.874	-0.000749207	5.15442e-05	2
5569	0.598907	532.734	-0.000684509	4.79126e-05	2
5633	0.628204	538.593	-0.000603027	4.28528e-05	2
5697	0.657501	544.452	-0.000507507	3.63556e-05	2
5761	0.686798	550.312	-0.000397247	2.91504e-05	2
5825	0.716095	556.171	-0.000277771	2.13654e-05	2
5889	0.745392	562.031	-0.000156036	1.42029e-05	2
5953	0.774689	567.89	-5.1239e-05	8.66394e-06	2
6017	0.803986	573.749	2.0462e-05	5.60303e-06	2
6081	0.833282	579.609	5.76477e-05	4.41589e-06	2
6145	0.862579	585.468	7.20215e-05	3.97644e-06	2
6209	0.891876	591.328	7.7179e-05	3.84827e-06	2
6273	0.921173	597.187	7.93152e-05	3.71094e-06	2
6337	0.95047	603.046	8.0658e-05	3.67737e-06	2
6401	0.979767	608.906	8.17566e-05	3.5675e-06	2
6465	1.00906	614.765	8.4259e-05	3.45154e-06	2
6529	1.03836	620.624	8.83179e-05	3.44849e-06	2
6593	1.03287	626.484	-2.17224e-05	3.40576e-06	2
6657	1.00357	632.343	-3.5556e-05	3.43018e-06	2
6721	0.974274	638.203	-4.16779e-05	3.479e-06	2
6785	0.944977	644.062	-4.48608e-05	3.58582e-06	2
6849	0.91568	649.921	-4.87061e-05	3.66821e-06	2
6913	0.886383	655.781	-5.40466e-05	3.7262e-06	2
6977	0.857086	661.64	-6.27441e-05	3.8269e-06	2
7041	0.827789	667.5	-8.15125e-05	4.14429e-06	2
7105	0.798492	673.359	-0.000121399	5.29175e-06	2
7169	0.769196	679.218	-0.000197449	8.4137e-06	2
7233	0.739899	685.078	-0.000307922	1.40961e-05	2
7297	0.710602	690.937	-0.000435364	2.14874e-05	2
7361	0.681305	696.797	-0.000565796	2.96143e-05	2
7425	0.652008	702.656	-0.000681458	3.70239e-05	2
7489	0.622711	708.515	-0.000784607	4.36035e-05	2
7553	0.593414	714.375	-0.000867615	4.89197e-05	2
7617	0.564117	720.234	-0.00093811	5.33142e-05	2
7681	0.534821	726.094	-0.000993958	5.60303e-05	2
7745	0.505524	731.953	-0.00104065	5.76477e-05	2
7809	0.476227	737.812	-0.0010849	5.896e-05	2
7873	0.44693	743.672	-0.00111725	5.88989e-05	2
7937	0.417633	749.531	-0.00115448	5.9021e-05	2
8001	0.388336	755.391	-0.00117981	5.80444e-05	2
8065	0.359039	761.25	-0.00120819	5.74341e-05	2
8129	0.329742	767.109	-0.00123322	5.62134e-05	2
8193	0.300446	772.969	-0.0012558	5.50537e-05	2
8257	0.271149	778.828	-0.00127747	5.41077e-05	2
8321	0.241852	784.687	-0.00129395	5.26428e-05	2
8385	0.212555	790.547	-0.00131531	5.15442e-05	2
8449	0.183258	796.406	-0.00132629	5.02625e-05	2
8513	0.153961	802.266	-0.00134247	4.92859e-05	2
8577	0.124664	808.125	-0.00135437	4.82178e-05	2
8641	0.0953674	813.984	-0.00136627	4.74243e-05	2
8705	0.0660706	819.844	-0.00138275	4.67224e-05	2
8769	0.063324	825.703	-0.00123444	4.68445e-05	3
8833	0.0926208	831.563	-0.00121277	4.82788e-05	3
8897	0.121918	837.422	-0.00119202	4.87671e-05	3
8961	0.151215	843.281	-0.00117493	5.04761e-05	3
9025	0.180511	849.141	-0.00115936	5.17578e-05	3
9089	0.209808	855	-0.00113953	5.30701e-05	3
9153	0.239105	860.86	-0.00112305	5.39856e-05	3
9217	0.268402	866.719	-0.00110046	5.55115e-05	3
9281	0.297699	872.578	-0.00108276	5.67932e-05	3
9345	0.326996	878.438	-0.0010553	5.78308e-05	3
9409	0.356293	884.297	-0.00103271	5.92041e-05	3
9473	0.38559	890.157	-0.0010022	5.96924e-05	3
9537	0.414886	896.016	-0.000973206	6.09436e-05	3
9601	0.444183	901.875	-0.000934753	6.02722e-05	3
9665	0.47348	907.735	-0.000898132	6.09436e-05	3
9729	0.502777	913.594	-0.000855103	6.00586e-05	3
9793	0.532074	919.453	-0.000807495	5.77393e-05	3
9857	0.561371	925.313	-0.000752869	5.61218e-05	3
9921	0.590668	931.172	-0.000685425	5.15442e-05	3
9985	0.619965	937.032	-0.000609741	4.66309e-05	3
10049	0.649261	942.891	-0.000518799	4.0213e-05	3
10113	0.678558	948.75	-0.000413849	3.25623e-05	3
10177	0.707855	954.61	-0.000298645	2.4649e-05	3
10241	0.737152	960.469	-0.000178436	1.6806e-05	3
10305	0.766449	966.329	-7.13196e-05	1.06506e-05	3
10369	0.795746	972.188	7.2052e-06	6.81152e-06	3
10433	0.825043	978.047	4.91333e-05	5.18188e-06	3
10497	0.85434	983.907	7.24792e-05	4.65088e-06	3
10561	0.883636	989.766	7.66602e-05	4.38538e-06	3
10625	0.912933	995.626	7.86743e-05	4.30603e-06	3
10689	0.94223	1001.48	8.05054e-05	4.21143e-06	3
10753	0.971527	1007.34	8.13904e-05	4.11072e-06	3
10817	1.00082	1013.2	8.31604e-05	4.01306e-06	3
10881	1.03012	1019.06	8.63342e-05	3.91846e-06	3
10945	1.04111	1024.92	-1.24542e-05	3.87268e-06	3
11009	1.01181	1030.78	-3.30994e-05	3.92456e-06	3
11073	0.982513	1036.64	-3.95264e-05	3.97339e-06	3
11137	0.953217	1042.5	-4.34692e-05	4.0863e-06	3
11201	0.92392	1048.36	-4.71802e-05	4.18396e-06	3
11265	0.894623	1054.22	-5.21851e-05	4.1748e-06	3
11329	0.865326	1060.08	-5.93567e-05	4.422e-06	3
11393	0.836029	1065.94	-7.43713e-05	4.64172e-06	3
11457	0.806732	1071.8	-0.000105164	5.48401e-06	3
11521	0.777435	1077.66	-0.000168213	7.92236e-06	3
11585	0.748138	1083.52	-0.000266754	1.28479e-05	3
11649	0.718842	1089.38	-0.000365936	2.01019e-05	3
11713	0.689545	1095.24	-0.000510864	2.85675e-05	3
11777	0.660248	1101.09	-0.000635986	3.69293e-05	3
11841	0.630951	1106.95	-0.000743713	4.40857e-05	3
11905	0.601654	1112.81	-0.000830078	5.02014e-05	3
11969	0.572357	1118.67	-0.000906982	5.52979e-05	3
12033	0.54306	1124.53	-0.000959473	5.83496e-05	3
12097	0.513763	1130.39	-0.00102448	6.08826e-05	3
12161	0.484467	1136.25	-0.00105988	6.18591e-05	3
12225	0.45517	1142.11	-0.00110138	6.25305e-05	3
12289	0.425873	1147.97	-0.00112762	6.19202e-05	3
12353	0.396576	1153.83	-0.00116608	6.17981e-05	3
12417	0.367279	1159.69	-0.00118988	6.02112e-05	3
12481	0.337982	1165.55	-0.00121979	5.97839e-05	3
12545	0.308685	1171.41	-0.00123932	5.81665e-05	3
12609	0.279388	1177.27	-0.00126587	5.71594e-05	3
12673	0.250092	1183.13	-0.00127655	5.54199e-05	3
12737	0.220795	1188.99	-0.00128723	5.44434e-05	3
12801	0.191498	1194.84	-0.00132172	5.27954e-05	3
12865	0.162201	1200.7	-0.00131134	5.19714e-05	3
12929	0.132904	1206.56	-0.00134888	5.06897e-05	3
12993	0.103607	1212.42	-0.00135742	4.97742e-05	3
13057	0.0743103	1218.28	-0.0013739	4.92554e-05	3
13112	0.0509644	1223.32	-0.0013385	4.87061e-05	3

File: 20190815_Fe_E3_ORR_bckg_after.txt
Index	Potential applied (V)	Time (s)	WE(1).Current (A)	Column 5 (V/s)	Scan	WE(1).Potential (V)
1	0.0505066	3.98667	-0.000245117	0.005	1	0.0505066
62	0.0784302	9.5714	4.69513e-05		1	0.0783081
123	0.106354	15.1561	5.93567e-05		1	0.10611
184	0.134277	20.7409	6.41174e-05		1	0.134033
245	0.162201	26.3256	6.73218e-05		1	0.161987
306	0.190125	31.9103	6.97937e-05		1	0.189819
367	0.218048	37.4951	7.22961e-05		1	0.217712
428	0.245972	43.0798	7.43103e-05		1	0.245514
489	0.273895	48.6645	7.64465e-05		1	0.273468
550	0.301819	54.2493	7.83081e-05		1	0.301392
611	0.329742	59.834	8.05054e-05		1	0.329285
672	0.357666	65.4187	8.30688e-05		1	0.357178
733	0.38559	71.0035	8.54797e-05		1	0.38501
794	0.413513	76.5882	8.83484e-05		1	0.412903
855	0.441437	82.1729	9.13696e-05		1	0.440765
916	0.46936	87.7577	9.51538e-05		1	0.468628
977	0.497284	93.3424	9.94873e-05		1	0.496582
1038	0.525208	98.9271	0.000104004		1	0.524414
1099	0.553131	104.512	0.00010788		1	0.552307
1160	0.581055	110.097	0.000108826		1	0.58017
1221	0.608978	115.681	0.000109222		1	0.608063
1282	0.636902	121.266	0.000110901		1	0.635925
1343	0.664825	126.851	0.000110443		1	0.663879
1404	0.692749	132.436	0.000107574		1	0.691803
1465	0.720673	138.02	0.000103882		1	0.719666
1526	0.748596	143.605	0.000100189		1	0.74762
1587	0.77652	149.19	9.68933e-05		1	0.776062
1648	0.804443	154.774	9.43298e-05		1	0.803528
1709	0.832367	160.359	9.22546e-05		1	0.831604
1770	0.860291	165.944	9.09424e-05		1	0.859375
1831	0.888214	171.529	8.99963e-05		1	0.887756
1892	0.916138	177.113	8.97217e-05		1	0.915527
1953	0.944061	182.698	9.03015e-05		1	0.943298
2014	0.971985	188.283	9.18274e-05		1	0.971069
2075	0.999908	193.868	9.48181e-05		1	0.99884
2136	1.02783	199.452	0.000100037		1	1.02722
2197	1.04477	205.037	7.67212e-06		1	1.04401
2258	1.01685	210.622	-2.99896e-05		1	1.01624
2319	0.988922	216.207	-3.93982e-05		1	0.988159
2380	0.960999	221.791	-4.44031e-05		1	0.960083
2441	0.933075	227.376	-4.80591e-05		1	0.932312
2502	0.905151	232.961	-5.14832e-05		1	0.904236
2563	0.877228	238.545	-5.51453e-05		1	0.87677
2624	0.849304	244.13	-5.90515e-05		1	0.848389
2685	0.821381	249.715	-6.40259e-05		1	0.8203125
2746	0.793457	255.3	-6.91528e-05		1	0.792236
2807	0.765533	260.884	-7.48291e-05		1	0.765381
2868	0.73761	266.469	-8.05969e-05		1	0.736847
2929	0.709686	272.054	-8.6792e-05		1	0.708954
2990	0.681763	277.639	-9.30176e-05		1	0.68103
3051	0.653839	283.223	-9.88464e-05		1	0.653168
3112	0.625916	288.808	-0.000104279		1	0.625214
3173	0.597992	294.393	-0.000107361		1	0.597351
3234	0.570068	299.978	-0.000108673		1	0.569427
3295	0.542145	305.562	-0.000108429		1	0.541565
3356	0.514221	311.147	-0.000107513		1	0.513702
3417	0.486298	316.732	-0.000106445		1	0.485809
3478	0.458374	322.316	-0.000105255		1	0.457916
3539	0.43045	327.901	-0.000105316		1	0.430054
3600	0.402527	333.486	-0.000108398		1	0.402161
3661	0.374603	339.071	-0.000108826		1	0.374298
3722	0.34668	344.655	-0.000107727		1	0.346375
3783	0.318756	350.24	-0.00010553		1	0.318542
3844	0.290833	355.825	-0.000104431		1	0.290588
3905	0.262909	361.41	-0.000103882		1	0.262726
3966	0.234985	366.994	-0.000104034		1	0.234802
4027	0.207062	372.579	-0.000104126		1	0.206909
4088	0.179138	378.164	-0.000104462		1	0.178986
4149	0.151215	383.749	-0.000105255		1	0.151123
4210	0.123291	389.333	-0.000106354		1	0.12326
4271	0.0953674	394.918	-0.000108856		1	0.0953979
4332	0.0674438	400.503	-0.000113434		1	0.0675049
4393	0.0605774	406.087	3.04199e-05		2	0.0600891
4454	0.088501	411.672	5.48401e-05		2	0.0882874
4515	0.116425	417.257	6.18286e-05		2	0.116241
4576	0.144348	422.842	6.56738e-05		2	0.144104
4637	0.172272	428.426	6.86951e-05		2	0.171967
4698	0.200195	434.011	7.15332e-05		2	0.199921
4759	0.228119	439.596	7.38525e-05		2	0.227753
4820	0.256042	445.181	7.62329e-05		2	0.255676
4881	0.283966	450.765	7.81555e-05		2	0.283478
4942	0.31189	456.35	8.04138e-05		2	0.311371
5003	0.339813	461.935	8.26111e-05		2	0.339325
5064	0.367737	467.52	8.46863e-05		2	0.367218
5125	0.39566	473.104	8.70056e-05		2	0.395081
5186	0.423584	478.689	8.91418e-05		2	0.423004
5247	0.451508	484.274	9.19495e-05		2	0.450867
5308	0.479431	489.858	9.52148e-05		2	0.478729
5369	0.507355	495.443	9.96094e-05		2	0.506622
5430	0.535278	501.028	0.000104889		2	0.534485
5491	0.563202	506.613	0.000108521		2	0.562378
5552	0.591125	512.197	0.000108856		2	0.59021
5613	0.619049	517.782	0.000108826		2	0.618073
5674	0.646973	523.367	0.000109589		2	0.645996
5735	0.674896	528.952	0.000107788		2	0.673889
5796	0.70282	534.536	0.000104584		2	0.701904
5857	0.730743	540.121	0.000100647		2	0.729767
5918	0.758667	545.706	9.67712e-05		2	0.758362
5979	0.786591	551.291	9.36584e-05		2	0.785522
6040	0.814514	556.875	9.09729e-05		2	0.813904
6101	0.842438	562.46	8.90198e-05		2	0.84137
6162	0.870361	568.045	8.73108e-05		2	0.869751
6223	0.898285	573.629	8.64258e-05		2	0.897522
6284	0.926208	579.214	8.5907e-05		2	0.925903
6345	0.954132	584.799	8.61511e-05		2	0.953064
6406	0.982056	590.384	8.72192e-05		2	0.981445
6467	1.00998	595.968	8.92334e-05		2	1.00891
6528	1.0379	601.553	9.35669e-05		2	1.03699
6589	1.0347	607.138	-1.94855e-05		2	1.03363
6650	1.00677	612.723	-3.61633e-05		2	1.00647
6711	0.978851	618.307	-4.24103e-05		2	0.978088
6772	0.950928	623.892	-4.63013e-05		2	0.950012
6833	0.923004	629.477	-4.953e-05		2	0.922241
6894	0.895081	635.061	-5.29175e-05		2	0.89447
6955	0.867157	640.646	-5.64575e-05		2	0.866394
7016	0.839233	646.231	-6.06689e-05		2	0.838318
7077	0.81131	651.816	-6.55823e-05		2	0.810242
7138	0.783386	657.4	-7.10144e-05		2	0.782471
7199	0.755463	662.985	-7.67517e-05		2	0.7547
7260	0.727539	668.57	-8.26721e-05		2	0.726776
7321	0.699615	674.155	-8.90198e-05		2	0.698883
7382	0.671692	679.739	-9.50928e-05		2	0.67099
7443	0.643768	685.324	-0.000100983		2	0.643036
7504	0.615845	690.909	-0.000105438		2	0.615082
7565	0.587921	696.494	-0.00010791		2	0.58725
7626	0.559998	702.078	-0.000108551		2	0.559357
7687	0.532074	707.663	-0.000108124		2	0.531464
7748	0.50415	713.248	-0.000106995		2	0.503601
7809	0.476227	718.832	-0.000105682		2	0.475769
7870	0.448303	724.417	-0.000104736		2	0.447845
7931	0.42038	730.002	-0.00010553		2	0.419952
7992	0.392456	735.587	-0.000108582		2	0.39212
8053	0.364532	741.171	-0.000108459		2	0.364227
8114	0.336609	746.756	-0.000106537		2	0.336273
8175	0.308685	752.341	-0.000104706		2	0.308411
8236	0.280762	757.926	-0.000103638		2	0.280518
8297	0.252838	763.51	-0.000103363		2	0.252625
8358	0.224915	769.095	-0.000103302		2	0.224762
8419	0.196991	774.68	-0.000103394		2	0.196869
8480	0.169067	780.265	-0.000103668		2	0.169006
8541	0.141144	785.849	-0.000104462		2	0.141113
8602	0.11322	791.434	-0.000105927		2	0.11319
8663	0.0852966	797.019	-0.000108643		2	0.0853271
8724	0.057373	802.603	-0.000114258		2	0.0574341
8785	0.0706482	808.188	4.56299e-05		3	0.0705261
8846	0.0985718	813.773	5.85327e-05		3	0.0983582
8907	0.126495	819.358	6.35986e-05		3	0.126282
8968	0.154419	824.942	6.68945e-05		3	0.154114
9029	0.182343	830.527	6.97937e-05		3	0.182007
9090	0.210266	836.112	7.24792e-05		3	0.20993
9151	0.23819	841.697	7.48901e-05		3	0.237793
9212	0.266113	847.281	7.69653e-05		3	0.265686
9273	0.294037	852.866	7.91626e-05		3	0.293579
9334	0.32196	858.451	8.12988e-05		3	0.321533
9395	0.349884	864.036	8.33435e-05		3	0.349335
9456	0.377808	869.62	8.54797e-05		3	0.377258
9517	0.405731	875.205	8.7677e-05		3	0.405151
9578	0.433655	880.79	9.01489e-05		3	0.432983
9639	0.461578	886.374	9.28955e-05		3	0.460907
9700	0.489502	891.959	9.65576e-05		3	0.488831
9761	0.517426	897.544	0.00010141		3	0.516632
9822	0.545349	903.129	0.000106415		3	0.544556
9883	0.573273	908.713	0.000108185		3	0.572388
9944	0.601196	914.298	0.000107635		3	0.60025
10005	0.62912	919.883	0.000108978		3	0.628143
10066	0.657043	925.468	0.000108734		3	0.656128
10127	0.684967	931.052	0.000106567		3	0.684021
10188	0.712891	936.637	0.000102631		3	0.711914
10249	0.740814	942.222	9.86938e-05		3	0.739929
10310	0.768738	947.807	9.49402e-05		3	0.768127
10371	0.796661	953.391	9.19495e-05		3	0.795288
10432	0.824585	958.976	8.9447e-05		3	0.823975
10493	0.852509	964.561	8.73718e-05		3	0.85144
10554	0.880432	970.145	8.5907e-05		3	0.879822
10615	0.908356	975.73	8.46558e-05		3	0.907593
10676	0.936279	981.315	8.45032e-05		3	0.935669
10737	0.964203	986.9	8.47473e-05		3	0.96344
10798	0.992126	992.484	8.58154e-05		3	0.991211
10859	1.02005	998.069	8.80432e-05		3	1.01929
10920	1.04797	1003.65	9.25293e-05		3	1.04706
10981	1.02463	1009.24	-2.91595e-05		3	1.02356
11042	0.996704	1014.82	-3.94562e-05		3	0.995789
11103	0.968781	1020.41	-4.422e-05		3	0.968323
11164	0.940857	1025.99	-4.75983e-05		3	0.939941
11225	0.912933	1031.58	-5.08728e-05		3	0.91217
11286	0.88501	1037.16	-5.40161e-05		3	0.884094
11347	0.857086	1042.75	-5.78918e-05		3	0.856323
11408	0.829163	1048.33	-6.19812e-05		3	0.828552
11469	0.801239	1053.92	-6.72607e-05		3	0.800781
11530	0.773315	1059.5	-7.28149e-05		3	0.7724
11591	0.745392	1065.09	-7.87659e-05		3	0.744659
11652	0.717468	1070.67	-8.49915e-05		3	0.716705
11713	0.689545	1076.26	-9.11255e-05		3	0.688812
11774	0.661621	1081.84	-9.73511e-05		3	0.660919
11835	0.633698	1087.42	-0.000102631		3	0.632965
11896	0.605774	1093.01	-0.000106537		3	0.605072
11957	0.57785	1098.59	-0.000108276		3	0.577179
12018	0.549927	1104.18	-0.000108368		3	0.549347
12079	0.522003	1109.76	-0.000107666		3	0.521484
12140	0.49408	1115.35	-0.000106323		3	0.493591
12201	0.466156	1120.93	-0.000105286		3	0.465637
12262	0.438232	1126.52	-0.000104065		3	0.437805
12323	0.410309	1132.1	-0.000106415		3	0.409912
12384	0.382385	1137.69	-0.000108551		3	0.382111
12445	0.354462	1143.27	-0.000107758		3	0.354187
12506	0.326538	1148.86	-0.000105255		3	0.326233
12567	0.298615	1154.44	-0.000103729		3	0.29837
12628	0.270691	1160.03	-0.000103271		3	0.270477
12689	0.242767	1165.61	-0.000102692		3	0.242584
12750	0.214844	1171.2	-0.000102875		3	0.214722
12811	0.18692	1176.78	-0.000102844		3	0.186798
12872	0.158997	1182.37	-0.00010321		3	0.158966
12933	0.131073	1187.95	-0.000104065		3	0.131042
12994	0.103149	1193.53	-0.000105682		3	0.10318
13055	0.0752258	1199.12	-0.000109161		3	0.0753479
13116	0.0527954	1204.7	-1.91711e-05		3	0.0528564
13132	0.0601196	1206.17	3.19122e-05		3	0.0600586